  STEP   TOTAL TIME             LOCATION OF OBSERVATION POINTS (K,I,J)
                      1  16  16     1  16  13     1  14  14     1  13  16
     1    56.250        95.658       7.47797E-04   8.07778E-04   1.99654E-03
     2    112.50        93.893       3.44217E-03   8.92408E-03   7.06743E-03
     3    168.75        94.197       2.81649E-02   2.73448E-02   5.96212E-02
     4    225.00        94.688       9.67187E-02   3.37582E-02   0.17167    
     5    281.25        95.859       0.20865       8.75330E-02   0.30327    
     6    337.50        97.395       0.23532       0.10844       0.37882    
     7    393.75        98.236       0.72143       0.17848        1.0210    
     8    450.00        98.648       0.87193       0.38877        1.7448    
     9    506.25        98.903        1.5206       0.50811        2.1510    
    10    562.50        99.061        2.1785       0.63458        2.6301    
    11    618.75        99.194        2.5454        1.0112        3.2075    
    12    675.00        99.370        2.9508        1.3079        3.8840    
    13    731.25        99.491        3.5890        1.6139        4.5105    
    14    787.50        99.610        4.2201        1.9413        4.8191    
    15    843.75        99.683        5.1076        4.5554        5.0473    
    16    900.00        99.739        5.5834        14.184        5.1391    
    17    912.50        99.748        5.6883        14.230        5.2601    
     1    968.75        98.737        6.1248        5.5443        6.1585    
     2    1025.0        98.278        5.9305        3.0203        6.6790    
     3    1081.2        97.306        5.9790        3.2706        7.1463    
     4    1137.5        96.179        5.7523        3.2911        6.9430    
     5    1193.8        94.268        5.8169        3.0371        6.8009    
     6    1250.0        92.029        5.7955        2.5642        6.3989    
     7    1306.2        90.126        5.4813        2.3091        6.0916    
     8    1362.5        87.854        4.7478        2.4879        6.0741    
     9    1418.8        85.020        4.4875        2.4200        6.2681    
    10    1475.0        82.098        3.9684        2.2570        4.5347    
    11    1531.2        75.370        3.7169        2.3329        4.3624    
    12    1587.5        70.914        3.5429        2.1795        4.1501    
    13    1643.8        71.108        2.8753        2.0920        3.7331    
    14    1700.0        63.760        2.7004        2.0162        3.0224    
    15    1756.2        60.507        2.5462        1.7694        2.7688    
    16    1812.5        61.121        2.0066        1.5638        2.5383    
    17    1868.8        47.613        1.7290        1.5237        1.7446    
    18    1925.0        36.619        1.3486        1.4204        1.7035    
    19    1981.2        30.551        1.1646        1.4100        1.5984    
    20    2037.5        25.818       0.88067        1.1920        1.5792    
    21    2093.8        22.816       0.78558        1.2290        1.4087    
    22    2150.0        21.403       0.60084        1.2090        1.2489    
    23    2206.2        17.565       0.61983        1.1004        1.0041    
    24    2262.5        14.737       0.62401        1.1502       0.91553    
    25    2318.8        12.525       0.60576        1.0941       0.78952    
    26    2375.0        11.126       0.59816       0.82950       0.76852    
    27    2431.2        9.9183       0.55080       0.83564       0.79228    
    28    2487.5        8.9513       0.49727       0.67370       0.75300    
    29    2543.8        8.1731       0.50526       0.68192       0.71864    
    30    2600.0        7.1637       0.51061       0.48414       0.69170    
    31    2656.2        6.5046       0.48177       0.32645       0.62857    
    32    2712.5        5.7424       0.48582       0.34131       0.55922    
    33    2768.8        5.1073       0.47173       0.27582       0.53421    
    34    2825.0        4.6766       0.41402       0.24999       0.48455    
    35    2881.2        4.0522       0.38215       0.24890       0.45831    
    36    2937.5        3.6559       0.35637       0.23150       0.43172    
    37    2993.8        3.2718       0.35534       0.23530       0.35898    
    38    3050.0        2.9051       0.35548       0.19651       0.33700    
    39    3106.2        2.7972       0.33898       0.18187       0.29989    
    40    3162.5        2.6981       0.29843       0.16959       0.26616    
    41    3218.8        2.2313       0.28415       0.17195       0.26036    
    42    3275.0        2.0772       0.25556       0.14802       0.26176    
    43    3331.2        1.9035       0.19225       0.14171       0.20642    
    44    3387.5        1.6652       0.17777       0.13022       0.17098    
    45    3443.8        1.5424       0.12956       0.12181       0.14422    
    46    3500.0        1.3997       0.10183       0.11748       0.14246    
    47    3556.2        1.1739       0.10160       0.11407       0.13951    
    48    3612.5        1.0746       0.10048       0.10442       0.13588    
    49    3650.0        1.0052       8.35671E-02   0.10160       0.13298    
