  STEP   TOTAL TIME             LOCATION OF OBSERVATION POINTS (K,I,J)
                      1  16  16     1  16  18     1  18  16     1  16  31
     1    14.287        23.831        1.2833       0.16162       1.34468E-08
     2    25.000        32.276        3.8641       0.35890       7.44933E-08
     3    39.287        38.470        9.0796       0.71401       9.26869E-07
     4    50.000        41.712        13.036        1.0026       3.49957E-06
     5    64.287        44.325        17.434        1.3938       2.10669E-05
     6    75.000        46.066        20.114        1.6748       6.13512E-05
     7    89.287        47.365        22.982        2.0332       2.45342E-04
     8    100.00        48.465        24.686        2.2790       5.87628E-04
     9    114.29        49.142        26.565        2.5784       1.77187E-03
    10    125.00        49.924        27.681        2.7786       3.63046E-03
    11    139.29        50.274        28.949        3.0188       8.84300E-03
    12    150.00        50.879        29.699        3.1805       1.59361E-02
    13    164.29        51.035        30.580        3.3720       3.27946E-02
    14    175.00        51.531        31.098        3.5003       5.31255E-02
    15    189.29        51.565        31.727        3.6498       9.54556E-02
    16    200.00        51.990        32.091        3.7493       0.14157    
    17    214.29        51.939        32.553        3.8644       0.22794    
    18    225.00        52.315        32.815        3.9412       0.31442    
    19    239.29        52.206        33.163        4.0290       0.46332    
    20    250.00        52.547        33.350        4.0881       0.60243    
    21    264.29        52.399        33.609        4.1558       0.82659    
    22    275.00        52.718        33.742        4.2018        1.0246    
    23    289.29        52.544        33.940        4.2542        1.3273    
    24    300.00        52.846        34.034        4.2902        1.5828    
    25    314.29        52.653        34.189        4.3309        1.9578    
    26    325.00        52.943        34.256        4.3593        2.2629    
    27    339.29        52.735        34.378        4.3909        2.6963    
    28    350.00        53.017        34.425        4.4132        3.0385    
    29    364.29        52.798        34.523        4.4378        3.5123    
    30    365.00        52.941        34.514        4.4387        3.5364    
