  STEP   TOTAL TIME             LOCATION OF OBSERVATION POINTS (K,I,J)
                      1  16  16     1  16  18     1  18  16     1  16  31
     1    14.288        22.193        1.1707       0.15063       1.22336E-08
     2    28.576        29.074        4.2712       0.39687       2.02084E-07
     3    42.863        30.657        8.6602       0.67959       1.74926E-06
     4    57.151        30.005        12.140       0.95273       1.04776E-05
     5    71.439        28.331        14.298        1.1812       4.85196E-05
     6    85.727        26.203        15.349        1.3619       1.84344E-04
     7    100.01        23.926        15.610        1.4937       5.96311E-04
     8    114.30        21.660        15.340        1.5765       1.68445E-03
     9    128.59        19.488        14.728        1.6183       4.23314E-03
    10    142.88        17.452        13.920        1.6247       9.60168E-03
    11    157.17        15.575        12.998        1.6025       1.98874E-02
    12    171.45        13.862        12.028        1.5586       3.79845E-02
    13    185.74        12.310        11.050        1.4985       6.74697E-02
    14    200.03        10.913        10.095        1.4269       0.11229    
    15    214.32        9.6598        9.1804        1.3478       0.17627    
    16    228.60        8.5399        8.3169        1.2644       0.26258    
    17    242.89        7.5419        7.5108        1.1792       0.37321    
    18    257.18        6.6542        6.7651        1.0941       0.50865    
    19    271.47        5.8673        6.0758        1.0107       0.66767    
    20    285.76        5.1613        5.4530       0.93010       0.84748    
    21    300.04        4.5320        4.8873       0.85293        1.0439    
    22    314.33        3.9737        4.3754       0.77973        1.2519    
    23    328.62        3.4804        3.9126       0.71082        1.4656    
    24    342.91        3.0457        3.4946       0.64636        1.6793    
    25    357.19        2.6635        3.1175       0.58640        1.8873    
    26    365.00        2.4628        2.9224       0.55613        1.9976    
     1    379.29        1.5802        2.5709       0.49873        2.1865    
     2    393.58        1.1353        2.2015       0.44323        2.3586    
     3    407.86       0.86509        1.8271       0.39110        2.5105    
     4    422.15       0.68181        1.5024       0.34326        2.6402    
     5    436.44       0.54900        1.2376       0.30011        2.7462    
     6    450.73       0.44866        1.0251       0.26167        2.8281    
     7    465.01       0.37065       0.85419       0.22774        2.8860    
     8    479.30       0.30874       0.71586       0.19798        2.9207    
     9    493.59       0.25884       0.60292       0.17200        2.9332    
    10    507.88       0.21815       0.50997       0.14938        2.9253    
    11    522.17       0.18465       0.43293       0.12973        2.8982    
    12    536.45       0.15686       0.36869       0.11268        2.8549    
    13    550.74       0.13367       0.31485       9.78959E-02    2.7941    
    14    565.03       0.11421       0.26952       8.50864E-02    2.7203    
    15    579.32       9.78203E-02   0.23121       7.39857E-02    2.6392    
    16    593.60       8.39543E-02   0.19872       6.43645E-02    2.5482    
    17    607.89       7.21881E-02   0.17109       5.60230E-02    2.4479    
    18    622.18       6.21753E-02   0.14753       4.87881E-02    2.3423    
    19    636.47       5.36327E-02   0.12740       4.25101E-02    2.2322    
    20    650.76       4.63281E-02   0.11015       3.70595E-02    2.1193    
    21    665.04       4.00692E-02   9.53572E-02   3.23246E-02    2.0049    
    22    679.33       3.46965E-02   8.26389E-02   2.82091E-02    1.8902    
    23    693.62       3.00767E-02   7.16900E-02   2.46300E-02    1.7763    
    24    707.91       2.60982E-02   6.22508E-02   2.15154E-02    1.6641    
    25    722.19       2.26672E-02   5.41023E-02   1.88037E-02    1.5545    
    26    730.00       2.09888E-02   5.01263E-02   1.74665E-02    1.4954    
